{"resourceType": "Bundle", "type": "transaction", "entry": [{"resource": {"id": "hahnemann", "name": "Hahnemann University Hospital", "address": {"state": "Pennsylvania", "country": "USA", "city": "Philadelphia", "postalCode": "19102", "line": ["230 N Broad St"], "text": "230 N Broad St, Philadelphia, PA 19102, USA"}, "resourceType": "Location", "meta": {"lastUpdated": "2018-11-01T11:51:40.713Z", "versionId": "92", "tag": [{"system": "https://aidbox.app", "code": "created"}]}}, "request": {"method": "POST", "url": "Location"}}, {"resource": {"id": "practitioner_kelly_smith", "name": [{"given": ["Kelly"], "family": "Smith", "text": "Kelly Smith"}], "qualification": [{"code": {"coding": [{"system": "http://hl7.org/fhir/v2/0360/2.7", "code": "PHD"}]}}], "resourceType": "Practitioner", "meta": {"lastUpdated": "2018-11-01T11:51:40.774Z", "versionId": "93", "tag": [{"system": "https://aidbox.app", "code": "created"}]}}, "request": {"method": "POST", "url": "Practitioner"}}, {"resource": {"id": "practitioner_adam_ainsley", "name": [{"given": ["Adam"], "family": "Ainsley", "text": "Adam Ainsley"}], "qualification": [{"code": {"coding": [{"system": "http://hl7.org/fhir/v2/0360/2.7", "code": "PHD"}]}}], "resourceType": "Practitioner", "meta": {"lastUpdated": "2018-11-01T11:51:40.825Z", "versionId": "94", "tag": [{"system": "https://aidbox.app", "code": "created"}]}}, "request": {"method": "POST", "url": "Practitioner"}}, {"resource": {"id": "practitioner_robert_alby", "name": [{"given": ["Robert"], "family": "Alby", "text": "Robert Alby"}], "qualification": [{"code": {"coding": [{"system": "http://hl7.org/fhir/v2/0360/2.7", "code": "PHD"}]}}], "resourceType": "Practitioner", "meta": {"lastUpdated": "2018-11-01T11:51:40.876Z", "versionId": "95", "tag": [{"system": "https://aidbox.app", "code": "created"}]}}, "request": {"method": "POST", "url": "Practitioner"}}, {"resource": {"id": "practitioner_role_kelly_smith", "practitioner": {"id": "practitioner_kelly_smith", "name": [{"given": ["Kelly"], "family": "Smith", "text": "Kelly Smith"}], "qualification": [{"code": {"coding": [{"system": "http://hl7.org/fhir/v2/0360/2.7", "code": "PHD"}]}}], "resourceType": "Practitioner", "meta": {"lastUpdated": "2018-11-01T11:51:40.774Z", "versionId": "93", "tag": [{"system": "https://aidbox.app", "code": "created"}]}}, "location": [{"id": "hahnemann", "name": "Hahnemann University Hospital", "address": {"state": "Pennsylvania", "country": "USA", "city": "Philadelphia", "postalCode": "19102", "line": ["230 N Broad St"], "text": "230 N Broad St, Philadelphia, PA 19102, USA"}, "resourceType": "Location", "meta": {"lastUpdated": "2018-11-01T11:51:40.713Z", "versionId": "92", "tag": [{"system": "https://aidbox.app", "code": "created"}]}}], "specialty": [{"coding": [{"code": "394814009", "display": "General Practice"}]}], "resourceType": "PractitionerRole", "meta": {"lastUpdated": "2018-11-01T11:51:40.929Z", "versionId": "96", "tag": [{"system": "https://aidbox.app", "code": "created"}]}}, "request": {"method": "POST", "url": "PractitionerRole"}}, {"resource": {"id": "practitioner_role_adam_ainsley", "practitioner": {"id": "practitioner_adam_ainsley", "name": [{"given": ["Adam"], "family": "Ainsley", "text": "Adam Ainsley"}], "qualification": [{"code": {"coding": [{"system": "http://hl7.org/fhir/v2/0360/2.7", "code": "PHD"}]}}], "resourceType": "Practitioner", "meta": {"lastUpdated": "2018-11-01T11:51:40.825Z", "versionId": "94", "tag": [{"system": "https://aidbox.app", "code": "created"}]}}, "location": [{"id": "hahnemann", "name": "Hahnemann University Hospital", "address": {"state": "Pennsylvania", "country": "USA", "city": "Philadelphia", "postalCode": "19102", "line": ["230 N Broad St"], "text": "230 N Broad St, Philadelphia, PA 19102, USA"}, "resourceType": "Location", "meta": {"lastUpdated": "2018-11-01T11:51:40.713Z", "versionId": "92", "tag": [{"system": "https://aidbox.app", "code": "created"}]}}], "specialty": [{"coding": [{"code": "394814009", "display": "General Practice"}]}], "resourceType": "PractitionerRole", "meta": {"lastUpdated": "2018-11-01T11:51:40.986Z", "versionId": "97", "tag": [{"system": "https://aidbox.app", "code": "created"}]}}, "request": {"method": "POST", "url": "PractitionerRole"}}, {"resource": {"id": "practitioner_role_robert_alby", "practitioner": {"id": "practitioner_robert_alby", "name": [{"given": ["Robert"], "family": "Alby", "text": "Robert Alby"}], "qualification": [{"code": {"coding": [{"system": "http://hl7.org/fhir/v2/0360/2.7", "code": "PHD"}]}}], "resourceType": "Practitioner", "meta": {"lastUpdated": "2018-11-01T11:51:40.876Z", "versionId": "95", "tag": [{"system": "https://aidbox.app", "code": "created"}]}}, "location": [{"id": "hahnemann", "name": "Hahnemann University Hospital", "address": {"state": "Pennsylvania", "country": "USA", "city": "Philadelphia", "postalCode": "19102", "line": ["230 N Broad St"], "text": "230 N Broad St, Philadelphia, PA 19102, USA"}, "resourceType": "Location", "meta": {"lastUpdated": "2018-11-01T11:51:40.713Z", "versionId": "92", "tag": [{"system": "https://aidbox.app", "code": "created"}]}}], "specialty": [{"coding": [{"code": "394814009", "display": "General Practice"}]}], "resourceType": "PractitionerRole", "meta": {"lastUpdated": "2018-11-01T11:51:41.040Z", "versionId": "98", "tag": [{"system": "https://aidbox.app", "code": "created"}]}}, "request": {"method": "POST", "url": "PractitionerRole"}}, {"resource": {"id": "schedule_for_kelly_smith", "active": true, "serviceCategory": {"coding": [{"code": "17", "display": "General Practice"}]}, "serviceType": [{"coding": [{"code": "124", "display": "General Practice"}]}], "specialty": [{"coding": [{"code": "394814009", "display": "General Practice"}]}], "actor": [{"reference": "Practitioner/practitioner_kelly_smith", "display": "Kelly Smith"}, {"reference": "Location/hahnemann", "display": "Hahnemann University Hospital"}], "planningHorizon": {"start": "2018-09-16T09:00:00Z", "end": "2018-09-16T18:00:00Z"}, "resourceType": "Schedule", "meta": {"lastUpdated": "2018-11-01T11:51:41.094Z", "versionId": "99", "tag": [{"system": "https://aidbox.app", "code": "created"}]}}, "request": {"method": "POST", "url": "Schedule"}}, {"resource": {"id": "slot_for_schedule_for_kelly_smith_0", "start": "2018-09-16T09:00:00", "end": "2018-09-16T10:00:00", "status": "free", "schedule": {"id": "schedule_for_kelly_smith", "active": true, "serviceCategory": {"coding": [{"code": "17", "display": "General Practice"}]}, "serviceType": [{"coding": [{"code": "124", "display": "General Practice"}]}], "specialty": [{"coding": [{"code": "394814009", "display": "General Practice"}]}], "actor": [{"reference": "Practitioner/practitioner_kelly_smith", "display": "Kelly Smith"}, {"reference": "Location/hahnemann", "display": "Hahnemann University Hospital"}], "planningHorizon": {"start": "2018-09-16T09:00:00Z", "end": "2018-09-16T18:00:00Z"}, "resourceType": "Schedule", "meta": {"lastUpdated": "2018-11-01T11:51:41.094Z", "versionId": "99", "tag": [{"system": "https://aidbox.app", "code": "created"}]}}, "serviceCategory": {"coding": [{"code": "17", "display": "General Practice"}]}, "serviceType": [{"coding": [{"code": "124", "display": "General Practice"}]}], "specialty": [{"coding": [{"code": "394814009", "display": "General Practice"}]}], "resourceType": "Slot", "meta": {"lastUpdated": "2018-11-01T11:51:41.150Z", "versionId": "100", "tag": [{"system": "https://aidbox.app", "code": "created"}]}}, "request": {"method": "POST", "url": "Slot"}}, {"resource": {"id": "slot_for_schedule_for_kelly_smith_1", "start": "2018-09-16T10:00:00", "end": "2018-09-16T11:00:00", "status": "free", "schedule": {"id": "schedule_for_kelly_smith", "active": true, "serviceCategory": {"coding": [{"code": "17", "display": "General Practice"}]}, "serviceType": [{"coding": [{"code": "124", "display": "General Practice"}]}], "specialty": [{"coding": [{"code": "394814009", "display": "General Practice"}]}], "actor": [{"reference": "Practitioner/practitioner_kelly_smith", "display": "Kelly Smith"}, {"reference": "Location/hahnemann", "display": "Hahnemann University Hospital"}], "planningHorizon": {"start": "2018-09-16T09:00:00Z", "end": "2018-09-16T18:00:00Z"}, "resourceType": "Schedule", "meta": {"lastUpdated": "2018-11-01T11:51:41.094Z", "versionId": "99", "tag": [{"system": "https://aidbox.app", "code": "created"}]}}, "serviceCategory": {"coding": [{"code": "17", "display": "General Practice"}]}, "serviceType": [{"coding": [{"code": "124", "display": "General Practice"}]}], "specialty": [{"coding": [{"code": "394814009", "display": "General Practice"}]}], "resourceType": "Slot", "meta": {"lastUpdated": "2018-11-01T11:51:41.207Z", "versionId": "101", "tag": [{"system": "https://aidbox.app", "code": "created"}]}}, "request": {"method": "POST", "url": "Slot"}}, {"resource": {"id": "slot_for_schedule_for_kelly_smith_2", "start": "2018-09-16T11:00:00", "end": "2018-09-16T12:00:00", "status": "free", "schedule": {"id": "schedule_for_kelly_smith", "active": true, "serviceCategory": {"coding": [{"code": "17", "display": "General Practice"}]}, "serviceType": [{"coding": [{"code": "124", "display": "General Practice"}]}], "specialty": [{"coding": [{"code": "394814009", "display": "General Practice"}]}], "actor": [{"reference": "Practitioner/practitioner_kelly_smith", "display": "Kelly Smith"}, {"reference": "Location/hahnemann", "display": "Hahnemann University Hospital"}], "planningHorizon": {"start": "2018-09-16T09:00:00Z", "end": "2018-09-16T18:00:00Z"}, "resourceType": "Schedule", "meta": {"lastUpdated": "2018-11-01T11:51:41.094Z", "versionId": "99", "tag": [{"system": "https://aidbox.app", "code": "created"}]}}, "serviceCategory": {"coding": [{"code": "17", "display": "General Practice"}]}, "serviceType": [{"coding": [{"code": "124", "display": "General Practice"}]}], "specialty": [{"coding": [{"code": "394814009", "display": "General Practice"}]}], "resourceType": "Slot", "meta": {"lastUpdated": "2018-11-01T11:51:41.259Z", "versionId": "102", "tag": [{"system": "https://aidbox.app", "code": "created"}]}}, "request": {"method": "POST", "url": "Slot"}}, {"resource": {"id": "slot_for_schedule_for_kelly_smith_3", "start": "2018-09-16T12:00:00", "end": "2018-09-16T13:00:00", "status": "free", "schedule": {"id": "schedule_for_kelly_smith", "active": true, "serviceCategory": {"coding": [{"code": "17", "display": "General Practice"}]}, "serviceType": [{"coding": [{"code": "124", "display": "General Practice"}]}], "specialty": [{"coding": [{"code": "394814009", "display": "General Practice"}]}], "actor": [{"reference": "Practitioner/practitioner_kelly_smith", "display": "Kelly Smith"}, {"reference": "Location/hahnemann", "display": "Hahnemann University Hospital"}], "planningHorizon": {"start": "2018-09-16T09:00:00Z", "end": "2018-09-16T18:00:00Z"}, "resourceType": "Schedule", "meta": {"lastUpdated": "2018-11-01T11:51:41.094Z", "versionId": "99", "tag": [{"system": "https://aidbox.app", "code": "created"}]}}, "serviceCategory": {"coding": [{"code": "17", "display": "General Practice"}]}, "serviceType": [{"coding": [{"code": "124", "display": "General Practice"}]}], "specialty": [{"coding": [{"code": "394814009", "display": "General Practice"}]}], "resourceType": "Slot", "meta": {"lastUpdated": "2018-11-01T11:51:41.318Z", "versionId": "103", "tag": [{"system": "https://aidbox.app", "code": "created"}]}}, "request": {"method": "POST", "url": "Slot"}}, {"resource": {"id": "slot_for_schedule_for_kelly_smith_4", "start": "2018-09-16T14:00:00", "end": "2018-09-16T15:00:00", "status": "free", "schedule": {"id": "schedule_for_kelly_smith", "active": true, "serviceCategory": {"coding": [{"code": "17", "display": "General Practice"}]}, "serviceType": [{"coding": [{"code": "124", "display": "General Practice"}]}], "specialty": [{"coding": [{"code": "394814009", "display": "General Practice"}]}], "actor": [{"reference": "Practitioner/practitioner_kelly_smith", "display": "Kelly Smith"}, {"reference": "Location/hahnemann", "display": "Hahnemann University Hospital"}], "planningHorizon": {"start": "2018-09-16T09:00:00Z", "end": "2018-09-16T18:00:00Z"}, "resourceType": "Schedule", "meta": {"lastUpdated": "2018-11-01T11:51:41.094Z", "versionId": "99", "tag": [{"system": "https://aidbox.app", "code": "created"}]}}, "serviceCategory": {"coding": [{"code": "17", "display": "General Practice"}]}, "serviceType": [{"coding": [{"code": "124", "display": "General Practice"}]}], "specialty": [{"coding": [{"code": "394814009", "display": "General Practice"}]}], "resourceType": "Slot", "meta": {"lastUpdated": "2018-11-01T11:51:41.381Z", "versionId": "104", "tag": [{"system": "https://aidbox.app", "code": "created"}]}}, "request": {"method": "POST", "url": "Slot"}}, {"resource": {"id": "slot_for_schedule_for_kelly_smith_5", "start": "2018-09-16T15:00:00", "end": "2018-09-16T16:00:00", "status": "free", "schedule": {"id": "schedule_for_kelly_smith", "active": true, "serviceCategory": {"coding": [{"code": "17", "display": "General Practice"}]}, "serviceType": [{"coding": [{"code": "124", "display": "General Practice"}]}], "specialty": [{"coding": [{"code": "394814009", "display": "General Practice"}]}], "actor": [{"reference": "Practitioner/practitioner_kelly_smith", "display": "Kelly Smith"}, {"reference": "Location/hahnemann", "display": "Hahnemann University Hospital"}], "planningHorizon": {"start": "2018-09-16T09:00:00Z", "end": "2018-09-16T18:00:00Z"}, "resourceType": "Schedule", "meta": {"lastUpdated": "2018-11-01T11:51:41.094Z", "versionId": "99", "tag": [{"system": "https://aidbox.app", "code": "created"}]}}, "serviceCategory": {"coding": [{"code": "17", "display": "General Practice"}]}, "serviceType": [{"coding": [{"code": "124", "display": "General Practice"}]}], "specialty": [{"coding": [{"code": "394814009", "display": "General Practice"}]}], "resourceType": "Slot", "meta": {"lastUpdated": "2018-11-01T11:51:41.438Z", "versionId": "105", "tag": [{"system": "https://aidbox.app", "code": "created"}]}}, "request": {"method": "POST", "url": "Slot"}}, {"resource": {"id": "slot_for_schedule_for_kelly_smith_6", "start": "2018-09-16T16:00:00", "end": "2018-09-16T17:00:00", "status": "free", "schedule": {"id": "schedule_for_kelly_smith", "active": true, "serviceCategory": {"coding": [{"code": "17", "display": "General Practice"}]}, "serviceType": [{"coding": [{"code": "124", "display": "General Practice"}]}], "specialty": [{"coding": [{"code": "394814009", "display": "General Practice"}]}], "actor": [{"reference": "Practitioner/practitioner_kelly_smith", "display": "Kelly Smith"}, {"reference": "Location/hahnemann", "display": "Hahnemann University Hospital"}], "planningHorizon": {"start": "2018-09-16T09:00:00Z", "end": "2018-09-16T18:00:00Z"}, "resourceType": "Schedule", "meta": {"lastUpdated": "2018-11-01T11:51:41.094Z", "versionId": "99", "tag": [{"system": "https://aidbox.app", "code": "created"}]}}, "serviceCategory": {"coding": [{"code": "17", "display": "General Practice"}]}, "serviceType": [{"coding": [{"code": "124", "display": "General Practice"}]}], "specialty": [{"coding": [{"code": "394814009", "display": "General Practice"}]}], "resourceType": "Slot", "meta": {"lastUpdated": "2018-11-01T11:51:41.491Z", "versionId": "106", "tag": [{"system": "https://aidbox.app", "code": "created"}]}}, "request": {"method": "POST", "url": "Slot"}}, {"resource": {"id": "slot_for_schedule_for_kelly_smith_7", "start": "2018-09-16T17:00:00", "end": "2018-09-16T18:00:00", "status": "free", "schedule": {"id": "schedule_for_kelly_smith", "active": true, "serviceCategory": {"coding": [{"code": "17", "display": "General Practice"}]}, "serviceType": [{"coding": [{"code": "124", "display": "General Practice"}]}], "specialty": [{"coding": [{"code": "394814009", "display": "General Practice"}]}], "actor": [{"reference": "Practitioner/practitioner_kelly_smith", "display": "Kelly Smith"}, {"reference": "Location/hahnemann", "display": "Hahnemann University Hospital"}], "planningHorizon": {"start": "2018-09-16T09:00:00Z", "end": "2018-09-16T18:00:00Z"}, "resourceType": "Schedule", "meta": {"lastUpdated": "2018-11-01T11:51:41.094Z", "versionId": "99", "tag": [{"system": "https://aidbox.app", "code": "created"}]}}, "serviceCategory": {"coding": [{"code": "17", "display": "General Practice"}]}, "serviceType": [{"coding": [{"code": "124", "display": "General Practice"}]}], "specialty": [{"coding": [{"code": "394814009", "display": "General Practice"}]}], "resourceType": "Slot", "meta": {"lastUpdated": "2018-11-01T11:51:41.545Z", "versionId": "107", "tag": [{"system": "https://aidbox.app", "code": "created"}]}}, "request": {"method": "POST", "url": "Slot"}}]}
